#HEIGHT=  1024
#WIDTH =  1024
#TIME  =  0.000000
#          #
#   1 X_IMAGE         Object position along x                         [pixel]
#   2 Y_IMAGE         Object position along y                         [pixel]
#   3 MAG_APER        Fixed aperture magnitude vector                 [mag]
#   4 FWHM_IMAGE      FWHM assuming a gaussian core                   [pixel]
#   5 FLAGS           Extraction flags
#   6 CLASS_STAR      S/G classifier output
#   7 ELONGATION      A_IMAGE/B_IMAGE
#   8 ELLIPTICITY     1 - B_IMAGE/A_IMAGE
#   9 A_IMAGE         Profile RMS along major axis                    [pixel]
#  10 B_IMAGE         Profile RMS along minor axis                    [pixel]
#  11 THETA_IMAGE     Position angle (CCW/x)                          [deg]
   574.229     66.322   2.8920    26.66 000  0.00    1.136    0.120     6.25     5.50 -13.7
   673.325     21.256   1.3631    25.16 002  0.05    1.824    0.452     5.66     3.10 -84.7
   661.358     20.642   1.2018    24.25 002  0.00    1.937    0.484     6.20     3.20 -78.8
   571.425     12.743   2.4011    26.94 000  0.00    1.152    0.132     6.19     5.38  -8.2
   151.469      9.003   0.4691    29.87 008  0.06    1.468    0.319     6.61     4.50  -9.1
   535.562      6.879   2.9751    14.62 002  0.00    1.630    0.387     3.11     1.91  41.7
   545.438      9.730   3.4450     9.24 002  0.00    3.433    0.709     2.86     0.83 -13.8
   859.604    955.420   2.9990    13.42 000  0.00    1.301    0.231     2.55     1.96  41.9
   734.152    951.710   2.7541    15.39 002  0.00    2.255    0.557     3.85     1.71  85.4
   737.691    942.922   2.9490    10.28 002  0.05    1.364    0.267     2.00     1.47 -13.6
   367.613    927.575  -0.4486    33.10 000  0.16    1.080    0.074     6.71     6.21 -13.8
   996.533    931.556   2.9967    17.42 002  0.00    2.197    0.545     4.30     1.96  68.0
   992.220    940.078   2.9476    13.62 002  0.00    2.027    0.507     3.23     1.60   5.7
   982.083    933.568   2.4168    17.44 002  0.00    2.353    0.575     4.46     1.90 -86.2
   988.501    926.812   2.7910     9.52 002  0.05    1.319    0.242     1.83     1.39 -19.5
   396.761    936.341   3.3735     8.56 002  0.00    2.473    0.596     2.25     0.91  26.5
   394.671    930.889   3.1327     9.88 002  0.01    1.510    0.338     2.03     1.34 -58.1
   400.056    923.992   2.9246    13.44 002  0.00    1.540    0.351     2.78     1.81 -38.9
   398.993    918.051   2.9239     4.30 002  0.13    1.033    0.032     0.74     0.71  48.0
   199.990    906.106   2.8661    35.14 000  0.00    1.047    0.045     6.07     5.80   0.5
   503.494    890.112   2.3986    16.30 002  0.00    1.646    0.393     3.49     2.12 -24.2
   496.484    880.702   2.1545    21.46 002  0.00    2.121    0.529     5.21     2.46 -70.0
   508.256    880.629   2.2078    17.62 002  0.00    2.359    0.576     4.51     1.91  67.6
   592.229    886.403   3.4200     8.96 002  0.06    2.392    0.582     2.32     0.97 -86.1
   596.015    881.981   3.2519     3.32 002  0.05    1.249    0.199     1.16     0.93  34.2
   594.796    876.623   2.8118     9.33 002  0.00    1.437    0.304     1.87     1.30  73.2
   589.178    870.923   2.9883     7.31 002  0.00    2.129    0.530     1.79     0.84 -13.8
   582.271    883.217   2.9807    10.96 002  0.00    2.040    0.510     2.61     1.28 -78.7
   580.946    876.420   2.6260    13.24 002  0.00    2.553    0.608     3.53     1.38 -60.3
   480.109    856.134   3.0143     5.60 002  0.06    2.581    0.612     1.90     0.74  68.8
   479.936    841.547   3.0685    12.36 002  0.00    3.112    0.679     3.64     1.17  -2.1
   486.578    851.677   2.8917    11.44 002  0.00    2.398    0.583     2.96     1.23 -63.5
   486.999    844.904   2.7515     8.10 002  0.06    1.246    0.198     1.51     1.21 -30.2
   473.597    847.171   2.7571    10.05 000  0.00    1.951    0.487     2.34     1.20  44.8
    86.111    843.799   3.1813    10.02 002  0.05    2.339    0.573     2.56     1.09 -73.2
    86.526    838.500   3.4181     0.51 002  0.05    1.759    0.432     0.80     0.45 -18.6
    83.483    836.455   3.2421     6.48 002  0.05    1.090    0.083     1.13     1.04  87.0
   767.484    837.582   2.9644    11.65 002  0.00    2.243    0.554     2.91     1.30  13.6
   763.169    830.924   3.1811     7.95 002  0.05    1.250    0.200     1.49     1.19 -76.1
   773.123    820.968   3.4326     5.24 002  0.06    2.298    0.565     1.34     0.58  26.1
   760.262    826.744   3.3479     7.76 002  0.00    4.567    0.781     2.77     0.61 -32.7
   770.312    823.348   3.1808     5.17 002  0.00    1.622    0.383     1.11     0.68 -85.8
   767.474    823.508   3.0492     8.58 002  0.01    1.402    0.287     1.70     1.21 -77.6
   379.477    758.509   3.5370     4.18 002  0.06    2.303    0.566     1.07     0.47  53.7
   368.863    760.889   3.1759     6.01 002  0.00    1.399    0.285     1.19     0.85 -39.8
   374.364    759.491   3.2023     7.81 002  0.00    2.203    0.546     1.94     0.88 -17.8
   368.196    757.311   3.1935     5.90 002  0.00    1.469    0.319     1.20     0.82 -27.8
   112.286    746.176   1.3655    25.91 002  0.00    2.624    0.619     6.99     2.67 -40.4
   104.459    737.937   1.4439    29.84 002  0.00    2.228    0.551     7.42     3.33 -48.0
   500.023    736.961   3.5488     6.19 002  0.05    2.412    0.585     1.61     0.67 -66.0
   493.176    741.474   3.0166    12.44 002  0.04    1.515    0.340     2.55     1.69  70.2
   495.790    738.577   3.3626     4.80 002  0.05    1.213    0.175     0.89     0.73  64.3
   493.981    734.732   3.3282     6.35 002  0.00    1.785    0.440     1.42     0.80  42.6
   498.303    732.686   3.5418     3.54 002  0.05    1.500    0.333     0.74     0.49  63.9
   494.122    729.995   2.9454     7.75 002  0.04    2.268    0.559     1.95     0.86  35.4
   480.131    738.736   2.9475    11.22 002  0.00    1.373    0.272     2.19     1.60  51.5
   481.967    731.745   2.7220    15.41 002  0.00    1.953    0.488     3.59     1.84 -39.7
  1022.376    703.763   3.7223     4.13 018  0.05    3.075    0.675     1.22     0.40 -58.5
  1022.428    694.926   2.9040    11.49 026  0.00    1.828    0.453     2.59     1.42 -85.5
   602.244    673.295   1.5175    55.46 002  0.00    2.208    0.547    13.98     6.33  28.0
   613.368    675.992   1.3123    22.50 002  0.00    2.088    0.521     5.42     2.59  85.2
   502.842    667.633   2.9398     8.96 002  0.00    2.525    0.604     2.38     0.94  30.4
   510.939    662.190   3.0785    26.37 002  0.00    1.863    0.463     6.00     3.22 -11.8
   498.884    659.121   3.0533     6.79 002  0.00    1.098    0.090     1.19     1.09  48.5
   505.402    654.172   2.8653    14.98 002  0.00    2.342    0.573     3.82     1.63 -16.1
   976.483    633.089   3.0027    23.27 002  0.00    1.991    0.498     5.47     2.75 -59.2
   975.347    639.009   2.8947     8.79 002  0.00    2.077    0.519     2.12     1.02 -22.8
   965.630    630.939   2.4970    18.16 002  0.00    2.460    0.593     4.75     1.93 -87.9
   970.743    623.894   2.6086     9.09 002  0.00    1.924    0.480     2.11     1.10  27.8
    78.059    614.449   3.6764    35.32 002  0.00    1.163    0.140     6.34     5.46 -81.6
    69.752    613.393   2.3188    13.34 002  0.00    1.199    0.166     2.44     2.03   9.9
   627.590    563.874   2.6368     7.24 002  0.06    1.138    0.121     1.61     1.41  45.5
   631.612    555.801   2.6497    20.07 002  0.00    2.222    0.550     4.99     2.24 -31.5
   641.360    564.222   2.5502    19.63 002  0.00    1.860    0.462     4.46     2.40 -60.8
   632.123    567.360   2.5787    10.89 002  0.00    1.393    0.282     2.14     1.54 -60.5
   385.672    513.211   2.3738    35.61 000  0.01    1.086    0.079     6.18     5.69 -33.7
   988.558    496.470   3.3100    15.37 002  0.00    2.088    0.521     3.70     1.77 -68.1
   982.964    500.834   3.1581     7.76 002  0.05    2.405    0.584     2.01     0.84  42.1
   979.512    486.237   2.7772    10.77 002  0.05    1.234    0.190     2.00     1.62  15.8
   977.641    500.156   2.7817     9.24 002  0.05    1.572    0.364     1.93     1.23  17.3
   974.749    496.143   2.6513     7.57 002  0.03    2.044    0.511     1.81     0.89 -16.2
   975.101    490.870   2.5695     9.69 002  0.00    2.383    0.580     2.50     1.05 -69.5
    74.536    486.669   1.3028    30.10 000  0.00    1.100    0.091     6.39     5.81 -54.5
   147.547    481.816   3.2835    28.39 000  0.00    1.082    0.076     6.06     5.60 -48.4
   634.837    460.802  -0.0877    28.23 000  0.15    1.085    0.079     6.52     6.01 -27.0
   183.939    437.216   1.8897    26.21 000  0.00    1.107    0.096     6.16     5.56 -51.8
   365.984    317.867   3.4105     6.35 002  0.06    2.282    0.562     1.64     0.72  41.1
   353.936    323.797   2.9679    18.16 002  0.05    1.511    0.338     3.72     2.46  59.2
   362.663    325.883   3.0209     8.88 002  0.00    1.894    0.472     2.04     1.08   8.1
   366.547    322.095   3.0138     8.64 002  0.05    1.637    0.389     1.85     1.13  -2.3
   459.480    289.484   3.3381     4.18 002  0.06    1.467    0.318     1.25     0.85  -4.4
   470.946    282.576   3.0495    16.17 002  0.00    3.064    0.674     4.72     1.54 -36.3
   477.821    285.992   3.4520     7.88 002  0.00    2.456    0.593     2.06     0.84  50.8
   476.637    282.714   3.5256     3.70 002  0.06    1.857    0.461     0.85     0.46 -75.9
   467.583    289.199   3.2545     8.75 002  0.06    1.258    0.205     1.92     1.53 -89.6
   472.277    287.260   3.3287     5.60 002  0.05    2.037    0.509     1.34     0.66  34.1
   628.268    269.850   1.6717    34.99 002  0.00    1.682    0.405     7.56     4.50  80.5
   618.418    269.738   1.4905    19.68 002  0.00    2.532    0.605     5.22     2.06  74.7
    56.822    255.380   1.9259     5.31 002  0.16    1.603    0.376     1.13     0.70 -44.6
    47.192    271.456   1.7070    31.21 002  0.00    2.282    0.562     7.85     3.44  79.1
    56.780    266.566   1.7817    24.60 002  0.00    2.489    0.598     6.47     2.60  78.7
   423.256    266.086   2.9178    28.69 002  0.00    1.094    0.086     5.65     5.17  34.2
   428.690    257.638   2.7559    12.09 002  0.00    2.475    0.596     3.17     1.28  63.4
   848.084    255.609   3.2960    10.27 002  0.05    2.669    0.625     2.80     1.05  72.4
   857.069    263.951   3.0249     9.96 002  0.05    1.161    0.138     1.83     1.58  -3.1
   850.544    268.619   2.9566    12.15 002  0.05    1.752    0.429     2.68     1.53  11.1
   842.351    265.666   2.7396    10.72 002  0.00    1.434    0.303     2.14     1.49  79.4
   841.889    259.662   2.8794     9.63 002  0.00    1.521    0.343     1.98     1.30  -9.6
   515.311    243.173   2.9656     4.57 002  0.06    1.335    0.251     1.86     1.39  51.1
   510.598    253.475   3.3746    10.78 002  0.00    2.897    0.655     3.06     1.06 -19.2
   511.989    250.000   3.5818    10.25 002  0.06    4.010    0.751     3.43     0.85  13.4
   509.927    243.004   3.2692     8.34 002  0.01    1.974    0.493     1.96     0.99  81.5
   409.091    248.485   3.2254     6.91 002  0.01    1.656    0.396     1.49     0.90  49.5
   412.448    243.623   2.9714     9.88 002  0.06    1.602    0.376     2.09     1.30  49.5
   414.539    240.501   3.2087     2.96 002  0.00    1.408    0.290     0.97     0.69  33.9
   461.424    236.521   0.4578    26.38 000  0.15    1.113    0.101     6.12     5.50 -24.7
   239.956    224.588   1.9264    27.47 000  0.00    1.128    0.114     6.36     5.64 -36.3
   757.017    218.520   3.5154     5.31 002  0.05    2.094    0.522     1.29     0.62 -11.7
   756.535    214.127   3.0717     8.24 002  0.00    1.202    0.168     1.51     1.26 -74.7
   750.364    219.678   2.9760     8.96 002  0.00    2.231    0.552     2.24     1.00  14.3
   743.467    209.867   3.2579     5.54 002  0.06    1.630    0.387     1.19     0.73 -48.7
   743.516    217.482   3.4041     5.10 002  0.05    1.161    0.138     0.92     0.80 -16.2
   745.035    214.515   3.2004     6.00 002  0.05    1.299    0.230     1.15     0.88  17.0
   570.492    218.772   2.7669    10.81 002  0.00    1.671    0.401     2.33     1.40   1.8
   574.979    214.828   2.9021    16.94 002  0.00    5.341    0.813     6.53     1.22  46.1
   564.481    219.497   3.0587     3.94 002  0.05    1.330    0.248     1.04     0.78 -69.4
   561.539    215.196   2.6905    11.78 002  0.00    1.843    0.457     2.67     1.45 -73.0
   560.157    210.837   2.9001     9.10 002  0.01    3.622    0.724     2.89     0.80 -35.9
   281.269    197.631   3.1111     8.64 002  0.01    1.708    0.415     1.89     1.10 -58.8
   273.629    190.372   2.7300    27.59 002  0.00    1.784    0.439     6.14     3.44 -16.8
   263.876    183.277   3.3736     8.01 002  0.06    3.836    0.739     2.62     0.68 -38.0
   261.650    191.723   3.2076     7.80 002  0.05    3.038    0.671     2.27     0.75  85.4
   256.941    189.368   3.0307    12.29 002  0.00    1.405    0.288     2.43     1.73 -39.2
   706.947    185.449   3.1357    29.50 002  0.00    1.325    0.245     5.66     4.27  18.2
   711.807    175.480   3.1615     6.13 002  0.00    2.092    0.522     1.49     0.71 -85.3
   313.375    157.128   3.0160    17.92 002  0.00    1.599    0.375     3.78     2.36  33.2
   321.150    134.919   3.3196     6.38 002  0.00    2.838    0.648     1.80     0.63 -70.9
   322.396    140.494   3.2417     8.82 002  0.00    2.416    0.586     2.29     0.95  28.6
   316.785    147.935   3.0914    20.23 002  0.00    1.696    0.410     4.39     2.59  18.3
   315.001    139.258   3.1156    19.56 002  0.01    1.857    0.461     4.44     2.39  88.8
   397.228    151.912   2.9488    28.77 000  0.00    1.127    0.113     6.03     5.35 -31.3
   266.578    147.947  -0.5255    26.33 000  0.17    1.139    0.122     6.34     5.57 -33.7
   227.692    151.023   3.3971     3.84 002  0.00    1.233    0.189     0.85     0.69  43.7
   227.162    140.366   2.9481    15.31 002  0.03    1.313    0.239     2.93     2.23  80.7
   231.940    150.408   3.2311     6.60 002  0.00    1.921    0.479     1.53     0.80  40.4
   232.614    145.093   3.1304     7.94 002  0.00    2.287    0.563     2.01     0.88  55.2
   804.100    126.429  -0.0984    26.72 000  0.16    1.137    0.121     6.98     6.14  -7.3
   576.534    109.575   2.6436    20.22 002  0.00    2.471    0.595     5.30     2.14 -46.9
   589.997    111.945   2.5414    15.29 002  0.00    1.478    0.323     3.10     2.10  55.9
   585.895    117.674   2.3595    11.85 002  0.00    2.113    0.527     2.88     1.36 -33.3
   577.775    117.623   2.4306    16.31 002  0.00    2.506    0.601     4.30     1.72  38.0
   886.781     93.877   3.0364    16.06 002  0.00    1.361    0.265     3.12     2.30  -3.0
   878.095    105.202   2.3126    18.94 002  0.00    1.831    0.454     4.27     2.33 -87.7
   885.789    109.480   2.2936    21.38 002  0.05    3.508    0.715     6.67     1.90 -53.7
   892.406    108.399   2.2719    11.60 002  0.00    1.679    0.404     2.51     1.49 -59.1
   274.263     99.107   2.9751    21.01 002  0.00    1.272    0.214     3.95     3.10   7.8
   265.599    104.205   3.0827     9.93 002  0.06    1.463    0.316     2.27     1.55 -50.4
   265.209     97.304   3.1304     8.89 002  0.05    1.614    0.380     1.89     1.17  41.0
   259.514     95.950   2.7933     6.19 002  0.06    2.027    0.507     2.09     1.03 -62.3
   862.323     75.751   1.6023    25.79 000  0.00    1.066    0.062     6.25     5.87  14.8
   451.955    974.304   1.4959    25.13 002  0.00    2.353    0.575     6.43     2.73 -64.3
   761.537     66.797   3.5297    34.02 000  0.00    1.087    0.080     5.91     5.44  24.7
   840.192     58.433   3.1526    10.38 002  0.00    1.832    0.454     2.35     1.28  28.5
   847.216     61.313   3.1314     5.96 002  0.00    1.252    0.201     1.12     0.89 -79.4
   852.088     59.011   2.8086    10.05 002  0.00    2.057    0.514     2.41     1.17 -56.7
   675.994     27.983   1.1609     4.21 002  0.85    1.011    0.011     0.71     0.71  43.7
   440.577    970.003   1.4992    31.08 002  0.00    1.978    0.494     7.28     3.68 -71.9
   496.091    967.219   3.0951    10.95 002  0.00    1.778    0.438     2.44     1.37 -66.1
   510.000    961.166   2.6999    18.40 002  0.00    2.185    0.542     4.54     2.08 -69.9
   497.132    956.465   2.6998    15.41 002  0.03    2.540    0.606     4.09     1.61 -50.5
   505.026    953.529   2.6862     7.13 002  0.00    1.027    0.026     1.21     1.18 -25.2
